#HEIGHT=  2672
#WIDTH =  4008
#TIME  =  0.000000
#          #
#   1 X_IMAGE         Object position along x                         [pixel]
#   2 Y_IMAGE         Object position along y                         [pixel]
#   3 MAG_APER        Fixed aperture magnitude vector                 [mag]
#   4 FWHM_IMAGE      FWHM assuming a gaussian core                   [pixel]
#   5 FLAGS           Extraction flags
#   6 CLASS_STAR      S/G classifier output
#   7 ELONGATION      A_IMAGE/B_IMAGE
#   8 ELLIPTICITY     1 - B_IMAGE/A_IMAGE
#   9 A_IMAGE         Profile RMS along major axis                    [pixel]
#  10 B_IMAGE         Profile RMS along minor axis                    [pixel]
#  11 THETA_IMAGE     Position angle (CCW/x)                          [deg]
  3767.445     14.157   0.9701    15.25 000  0.00    1.422    0.297     4.19     2.95 -89.5
   250.594    363.612  -1.4190    14.53 000  0.07    1.380    0.275     6.30     4.57  68.2
   760.333    392.861  -0.7849    14.91 000  0.05    1.459    0.314     5.97     4.10  70.6
  3441.396    436.198   0.1894    15.23 000  0.00    1.546    0.353     5.19     3.35  80.0
  2508.077    393.519   1.6940     8.55 000  0.00    1.109    0.098     1.50     1.36  87.1
  2175.969    452.185   1.3496    13.41 000  0.00    1.386    0.278     3.07     2.21 -89.0
  1240.601    473.307   1.3347    12.95 000  0.00    1.320    0.243     2.94     2.23  79.8
  1686.077    518.209   1.1300    13.90 000  0.00    1.445    0.308     3.58     2.48  81.9
  3977.152    533.661   1.0438    14.03 000  0.00    1.462    0.316     3.74     2.56  84.7
   115.000   1055.426   1.7863    49.29 034  0.14  218.113    0.995   121.26     0.56  90.0
   115.000    679.675   1.8663    50.49 034  0.15  157.547    0.994   105.58     0.67 -90.0
   115.000    430.727  99.0000     0.00 050  1.00   85.182    0.988    54.18     0.64 -90.0
    45.755    623.294  -0.3038    14.43 000  0.00    1.406    0.289     5.64     4.01  68.1
  3395.184    628.010   1.4606    13.20 000  0.00    1.214    0.176     2.43     2.00 -86.1
   160.795    672.559   0.4673    15.45 000  0.00    1.425    0.298     4.97     3.49  66.1
   115.000   1403.342   1.9227    40.36 034  0.15  112.266    0.991    71.25     0.63 -90.0
  2144.733    746.389   1.0215    14.73 000  0.00    1.464    0.317     3.87     2.65  79.6
   621.786    814.382  -1.6418    14.32 000  0.52    1.425    0.298     5.95     4.18  69.9
  2061.113    818.761   0.7769    14.36 000  0.00    1.497    0.332     4.22     2.82  74.7
   925.749    821.148   1.5293    13.43 000  0.00    1.458    0.314     2.71     1.85  87.5
  3983.783    883.247   1.3244    14.38 000  0.00    1.343    0.256     3.03     2.25 -88.7
  3797.999    909.937   0.4184    15.60 000  0.00    1.575    0.365     5.11     3.24  79.0
  3021.868    934.463   0.8564    14.61 000  0.00    1.516    0.340     4.06     2.68  75.3
  1400.328    958.105   0.1914    15.17 000  0.00    1.584    0.369     5.29     3.34  72.4
  1287.847   1135.004   0.9410     0.98 000  1.00    1.098    0.089     0.77     0.70   3.0
  1996.881   1227.238  -1.4524    14.57 000  0.58    1.501    0.334     6.07     4.04  72.7
   201.983   1169.563   1.6651    10.63 000  0.00    1.314    0.239     2.03     1.55 -65.2
   917.226   1345.909   1.6562    11.62 000  0.00    1.291    0.225     2.20     1.71  82.1
  2669.361   1434.868   0.0561    15.38 000  0.00    1.570    0.363     5.23     3.33  72.6
   557.921   1452.116   0.0203    14.38 000  0.00    1.451    0.311     5.22     3.60  71.8
  1116.202   1482.291   1.0397    14.23 000  0.00    1.418    0.295     3.72     2.62  76.9
  1155.763   1601.468   1.8341     7.47 000  0.00    1.211    0.174     1.38     1.14 -43.6
  3448.826   1656.078   1.0189    16.83 000  0.00    1.650    0.394     4.14     2.51  74.1
  1206.483   1637.888   1.7857     9.45 000  0.00    1.673    0.402     2.04     1.22  70.7
  2605.678   1647.924   1.6197    12.76 000  0.00    1.772    0.436     2.83     1.60  74.6
  2293.990   1741.007   1.6433    11.63 000  0.00    1.698    0.411     2.53     1.49  61.1
  3028.997   2660.800   1.8148     4.73 000  1.00    1.392    0.282     0.94     0.68 -89.7
  3029.010   2654.899   1.6158     4.93 000  0.98    1.622    0.383     1.06     0.65 -89.8
  3028.995   2647.354   1.8102     8.00 000  0.07    3.876    0.742     2.63     0.68 -89.9
  3449.992   2563.006   1.7268     8.25 002  0.00    1.198    0.165     1.51     1.26  85.6
  3448.333   2559.445   1.7100     9.78 002  0.00    1.318    0.241     1.88     1.42 -46.3
  1381.135   2537.292  -0.5244    15.57 000  0.08    1.535    0.348     5.78     3.77  73.1
   389.247   2543.062   1.1994    14.22 000  0.00    1.295    0.228     3.48     2.69  82.8
  3028.994   2543.623   1.3049     6.50 000  0.30    2.423    0.587     1.70     0.70 -89.9
  3029.020   2508.958   1.5338     4.63 002  0.94    1.269    0.212     0.88     0.69  89.1
  3029.107   2504.837   1.8726     1.01 002  1.00    1.335    0.251     0.91     0.68 -85.2
   441.280   2476.847   1.6550     9.74 002  0.00    2.068    0.516     2.34     1.13  37.5
   441.543   2472.115   1.5020    11.96 002  0.00    1.115    0.104     2.11     1.89   8.7
  3296.000   2478.759   0.9290     1.09 000  0.99    1.135    0.119     0.79     0.69 -89.8
  3029.003   2443.726   1.4491     6.32 000  0.14    2.579    0.612     1.70     0.66 -89.8
  3029.005   2296.152   1.4056     5.27 000  0.74    1.640    0.390     1.13     0.69  89.1
  2312.042   2296.977   0.4515     0.00 000  1.00    1.085    0.079     0.76     0.70 -28.6
  3028.962   2288.483   1.6728     7.02 000  0.96    3.198    0.687     2.10     0.66 -88.8
  2268.553   2268.719   1.0655    17.54 000  0.00    1.754    0.430     4.16     2.37  76.4
  3029.013   2267.127   1.8641     5.43 000  0.94    2.174    0.540     1.34     0.62 -89.8
  3028.987   2242.723   1.7483     5.15 000  0.15    2.332    0.571     1.43     0.61 -89.7
  3028.972   2187.726   1.5173     5.41 000  0.13    1.748    0.428     1.20     0.69  89.5
  3029.007   2085.198   1.5269     6.92 000  0.03    3.972    0.748     2.31     0.58 -89.9
  1619.220   2076.204   1.1642    16.61 000  0.00    1.680    0.405     3.85     2.29  76.0
   754.509   2032.619   1.3888    15.41 000  0.00    1.591    0.371     3.24     2.04  82.6
   905.330   2030.254   1.4923    13.75 000  0.00    1.369    0.269     2.68     1.96  84.3
  3539.913   1998.661  -0.9216    15.51 000  0.18    1.420    0.296     6.06     4.27  59.7
  2156.427   2611.885   1.5979    10.82 002  0.00    1.336    0.252     2.09     1.56  81.1
  1893.984   1798.238   1.6218     1.12 000  0.97    1.143    0.125     0.79     0.69  86.4
  2723.324   1699.335   1.4446    15.00 000  0.00    1.696    0.410     3.26     1.92  72.1
  1156.053   2630.721   1.4910    15.60 000  0.00    1.403    0.287     3.08     2.20  75.4
  2157.753   2616.995   1.7107     7.53 002  0.00    1.582    0.368     1.58     1.00  15.6
  3028.935   2596.697   1.6181     6.18 000  0.39    2.543    0.607     1.65     0.65  89.2
   446.124   2398.651   1.1962    15.99 000  0.00    1.397    0.284     3.78     2.70  71.7
  3739.750   2444.502   0.5647    16.43 000  0.00    1.709    0.415     5.06     2.96  73.8
  3029.021   2345.413   1.2491     6.90 000  0.05    3.114    0.679     2.15     0.69 -88.8
   160.476   1816.130   0.3615    14.79 000  0.00    1.392    0.282     4.97     3.57  70.2
   311.640   2331.137   0.4111    15.08 000  0.00    1.413    0.292     4.91     3.47  72.5
  3028.940   2095.724   1.7216     5.50 000  1.00    1.956    0.489     1.29     0.66  87.4
  3029.008   2143.608   2.0807     5.70 000  0.91    3.429    0.708     1.77     0.52 -90.0
  3028.976   2164.329   1.6693     5.05 000  0.68    1.677    0.404     1.10     0.66  88.4
